trialNum,condition,location,offset,vision,vibration,audio,response,responseTime
1,5,0,400,0,2,1,7,3849.68
2,10,0,300,1,1,0,7,3213.35
3,13,0,300,1,1,1,7,2448.24
4,12,0,200,1,0,1,5,1097.58
5,11,0,400,1,2,0,7,2196.91
6,4,0,300,0,1,1,8,1157.57
7,15,0,200,1,0,2,7,6446.47
8,6,0,100,0,0,2,9,2041.09
9,1,0,200,0,1,0,8,4156.8
10,15,0,400,1,0,2,5,3413.01
11,6,0,400,0,0,2,4,2186.44
12,16,0,300,1,1,2,5,5309.57
13,9,0,400,1,0,0,4,2410.05
14,12,0,300,1,0,1,4,1824.86
15,14,0,100,1,2,1,8,1360.21
16,8,0,300,0,2,2,8,1222.07
17,4,0,100,0,1,1,9,1820.95
18,14,0,0,1,2,1,9,828.497
19,17,0,0,1,2,2,9,844.796
20,7,0,100,0,1,2,9,1655.3
21,12,0,100,1,0,1,9,3993.71
22,3,0,300,0,0,1,3,3555.29
23,0,0,0,0,0,0,9,1785.13
24,17,0,400,1,2,2,3,2010.55
25,9,0,200,1,0,0,3,2277.11
26,7,0,200,0,1,2,4,4671.21
27,10,0,400,1,1,0,2,3197.23
28,2,0,300,0,2,0,3,2667.42
29,6,0,200,0,0,2,5,2870.17
30,10,0,200,1,1,0,4,5026.74
31,10,0,0,1,1,0,9,760.536
32,8,0,400,0,2,2,7,1888.73
33,15,0,300,1,0,2,5,2276.84
34,4,0,0,0,1,1,9,370.443
35,1,0,400,0,1,0,5,2490.07
36,3,0,0,0,0,1,9,970.081
37,11,0,300,1,2,0,5,2243.85
38,5,0,200,0,2,1,7,2554.67
39,5,0,100,0,2,1,9,1386.94
40,9,0,300,1,0,0,2,2978.15
41,3,0,100,0,0,1,8,2020.14
42,16,0,400,1,1,2,4,1860.39
43,9,0,100,1,0,0,7,1476.64
44,15,0,100,1,0,2,7,2477.65
45,1,0,0,0,1,0,9,954.864
46,17,0,300,1,2,2,6,1328.08
47,8,0,0,0,2,2,9,286.334
48,16,0,200,1,1,2,7,4927.86
49,15,0,0,1,0,2,9,1327.8
50,13,0,400,1,1,1,3,1811.51
51,3,0,400,0,0,1,3,1836.93
52,2,0,0,0,2,0,9,387.119
53,6,0,0,0,0,2,9,353.584
54,7,0,0,0,1,2,9,304.96
55,12,0,400,1,0,1,3,944.64
56,1,0,300,0,1,0,3,2002.33
57,0,0,300,0,0,0,2,3170.08
58,7,0,300,0,1,2,4,2520.92
59,6,0,300,0,0,2,4,2137.1
60,12,0,0,1,0,1,7,993.017
61,3,0,200,0,0,1,5,2722.27
62,14,0,200,1,2,1,7,693.661
63,5,0,300,0,2,1,5,1637.64
64,0,0,400,0,0,0,1,1653.73
65,11,0,100,1,2,0,6,1425.89
66,5,0,0,0,2,1,9,55.1791
67,0,0,200,0,0,0,3,1788.67
68,11,0,200,1,2,0,5,626.993
69,1,0,100,0,1,0,9,223.515
70,0,0,100,0,0,0,5,3538.24
71,16,0,0,1,1,2,9,394.276
72,4,0,200,0,1,1,8,1422.17
73,14,0,300,1,2,1,7,2158.66
74,8,0,200,0,2,2,6,636.215
75,17,0,200,1,2,2,7,410.999
76,10,0,100,1,1,0,9,1127.85
77,2,0,200,0,2,0,7,571.733
78,2,0,400,0,2,0,5,2424.17
79,8,0,100,0,2,2,7,1420.14
80,16,0,100,1,1,2,8,661.642
81,17,0,100,1,2,2,9,661.747
82,4,0,400,0,1,1,5,2904.72
83,7,0,400,0,1,2,3,1086.8
84,9,0,0,1,0,0,9,509.656
85,13,0,100,1,1,1,8,460.075
86,13,0,0,1,1,1,9,79.434
87,11,0,0,1,2,0,9,1044.59
88,14,0,400,1,2,1,7,1411.85
89,13,0,200,1,1,1,8,1443.36
90,2,0,100,0,2,0,9,287.84
91,15,0,400,1,0,2,3,823.186
92,6,0,100,0,0,2,8,684.273
93,9,0,200,1,0,0,5,377.493
94,14,0,300,1,2,1,7,460.59
95,11,0,400,1,2,0,3,1260.67
96,0,0,200,0,0,0,2,1086.62
97,16,0,300,1,1,2,3,693.585
98,10,0,300,1,1,0,4,576.778
99,2,0,100,0,2,0,9,1054.52
100,2,0,300,0,2,0,7,388.201
101,13,0,200,1,1,1,7,1176.66
102,9,0,300,1,0,0,3,2643.92
103,15,0,300,1,0,2,5,1278.83
104,5,0,200,0,2,1,7,2887.39
105,8,0,300,0,2,2,6,2369.46
106,17,0,400,1,2,2,5,2043.26
107,8,0,0,0,2,2,9,87.6609
108,3,0,400,0,0,1,2,871.659
109,2,0,0,0,2,0,9,19.2844
110,13,0,400,1,1,1,3,2294.55
111,7,0,0,0,1,2,9,721.348
112,16,0,400,1,1,2,6,3310.94
113,17,0,0,1,2,2,9,126.655
114,6,0,300,0,0,2,2,839.086
115,15,0,100,1,0,2,8,555.823
116,8,0,200,0,2,2,7,1371.69
117,11,0,0,1,2,0,9,293.949
118,6,0,0,0,0,2,9,71.9723
119,12,0,300,1,0,1,6,2444.27
120,0,0,400,0,0,0,1,739.963
121,10,0,100,1,1,0,8,1708.41
122,10,0,0,1,1,0,9,428.44
123,12,0,0,1,0,1,9,328.625
124,2,0,200,0,2,0,7,1171.67
125,3,0,100,0,0,1,6,2086.64
126,9,0,0,1,0,0,9,311.285
127,13,0,0,1,1,1,8,1178.19
128,7,0,100,0,1,2,7,3289.15
129,0,0,0,0,0,0,9,357.266
130,1,0,100,0,1,0,9,504.098
131,10,0,400,1,1,0,6,1260.59
132,2,0,400,0,2,0,3,1303.43
133,9,0,100,1,0,0,8,1342.57
134,6,0,200,0,0,2,3,1371.7
135,14,0,100,1,2,1,8,2126.0
136,17,0,100,1,2,2,8,844.428
137,15,0,200,1,0,2,5,630.101
138,5,0,300,0,2,1,7,1337.99
139,14,0,400,1,2,1,5,560.031
140,16,0,0,1,1,2,9,307.746
141,11,0,200,1,2,0,7,1177.37
142,5,0,100,0,2,1,8,437.683
143,4,0,200,0,1,1,7,1538.04
144,7,0,300,0,1,2,6,1884.2
145,11,0,100,1,2,0,8,2027.59
146,6,0,400,0,0,2,2,1155.71
147,13,0,300,1,1,1,6,2192.3
148,1,0,200,0,1,0,5,1220.8
149,12,0,100,1,0,1,7,793.854
150,17,0,200,1,2,2,7,744.39
151,0,0,300,0,0,0,2,1320.23
152,14,0,0,1,2,1,9,392.291
153,13,0,100,1,1,1,9,345.489
154,5,0,0,0,2,1,9,359.035
155,10,0,200,1,1,0,7,3926.79
156,5,0,400,0,2,1,6,2121.4
157,4,0,400,0,1,1,6,2416.43
158,15,0,0,1,0,2,9,509.647
159,4,0,100,0,1,1,7,338.701
160,1,0,400,0,1,0,5,571.297
161,12,0,400,1,0,1,3,1208.87
162,16,0,100,1,1,2,7,328.178
163,1,0,300,0,1,0,4,1788.55
164,17,0,300,1,2,2,4,943.408
165,4,0,0,0,1,1,9,320.28
166,9,0,400,1,0,0,2,2161.47
167,3,0,300,0,0,1,5,1169.85
168,3,0,0,0,0,1,9,270.11
169,3,0,200,0,0,1,6,752.0
170,7,0,400,0,1,2,4,1672.64
171,12,0,200,1,0,1,5,791.965
172,8,0,400,0,2,2,6,1354.06
173,4,0,300,0,1,1,4,2587.52
174,0,0,100,0,0,0,7,1070.56
175,14,0,200,1,2,1,6,693.968
176,1,0,0,0,1,0,9,604.333
177,11,0,300,1,2,0,6,528.255
178,7,0,200,0,1,2,6,806.108
179,16,0,200,1,1,2,5,1143.97
180,8,0,100,0,2,2,9,937.489
181,7,0,200,0,1,2,3,1683.49
182,6,0,200,0,0,2,6,1115.77
183,8,0,200,0,2,2,6,702.799
184,2,0,300,0,2,0,5,1054.33
185,3,0,200,0,0,1,7,887.461
186,6,0,300,0,0,2,6,1021.01
187,10,0,100,1,1,0,9,409.781
188,8,0,0,0,2,2,9,637.938
189,10,0,0,1,1,0,9,177.862
190,13,0,300,1,1,1,7,727.799
191,15,0,300,1,0,2,5,1043.76
192,12,0,0,1,0,1,9,210.35
193,1,0,200,0,1,0,7,239.284
194,2,0,400,0,2,0,5,1287.32
195,15,0,0,1,0,2,9,623.806
196,4,0,300,0,1,1,5,1475.16
197,13,0,0,1,1,1,9,126.636
198,11,0,400,1,2,0,5,496.172
199,12,0,400,1,0,1,3,1826.58
200,11,0,100,1,2,0,8,475.982
201,6,0,400,0,0,2,4,1321.38
202,0,0,200,0,0,0,1,1953.29
203,10,0,400,1,1,0,6,893.656
204,14,0,400,1,2,1,4,712.749
205,1,0,300,0,1,0,2,1987.5
206,13,0,200,1,1,1,4,2160.29
207,1,0,0,0,1,0,9,420.953
208,1,0,100,0,1,0,9,488.341
209,9,0,100,1,0,0,9,1044.22
210,5,0,300,0,2,1,7,1004.83
211,16,0,100,1,1,2,9,926.599
212,12,0,100,1,0,1,9,1213.16
213,10,0,200,1,1,0,8,1038.09
214,0,0,0,0,0,0,9,422.151
215,17,0,300,1,2,2,7,461.061
216,4,0,200,0,1,1,5,203.97
217,4,0,100,0,1,1,7,204.141
218,2,0,0,0,2,0,9,286.048
219,12,0,200,1,0,1,6,1078.56
220,6,0,100,0,0,2,7,970.915
221,12,0,300,1,0,1,3,664.259
222,15,0,100,1,0,2,8,327.136
223,11,0,300,1,2,0,6,428.292
224,17,0,200,1,2,2,7,493.644
225,7,0,0,0,1,2,9,87.2849
226,9,0,300,1,0,0,2,494.641
227,2,0,200,0,2,0,6,737.508
228,11,0,200,1,2,0,8,993.932
229,16,0,400,1,1,2,5,896.4
230,3,0,300,0,0,1,3,1336.63
231,14,0,100,1,2,1,7,2943.44
232,10,0,300,1,1,0,5,1544.47
233,1,0,400,0,1,0,4,587.474
234,0,0,300,0,0,0,1,853.016
235,13,0,100,1,1,1,6,509.593
236,0,0,400,0,0,0,1,654.421
237,4,0,0,0,1,1,9,355.972
238,16,0,200,1,1,2,7,594.953
239,9,0,400,1,0,0,1,677.579
240,16,0,300,1,1,2,7,559.475
241,14,0,0,1,2,1,9,343.939
242,5,0,200,0,2,1,8,987.823
243,14,0,200,1,2,1,6,1360.26
244,3,0,100,0,0,1,8,1154.59
245,15,0,400,1,0,2,5,1528.18
246,3,0,400,0,0,1,3,1003.67
247,6,0,0,0,0,2,9,652.547
248,8,0,400,0,2,2,6,1621.49
249,7,0,400,0,1,2,5,1019.72
250,7,0,300,0,1,2,5,603.083
251,16,0,0,1,1,2,9,326.447
252,3,0,0,0,0,1,9,188.808
253,11,0,0,1,2,0,9,263.518
254,17,0,100,1,2,2,8,262.063
255,5,0,400,0,2,1,6,1255.0
256,5,0,0,0,2,1,9,186.225
257,9,0,200,1,0,0,3,3310.93
258,13,0,400,1,1,1,6,1643.51
259,7,0,100,0,1,2,9,1803.59
260,5,0,100,0,2,1,9,1087.45
261,0,0,100,0,0,0,9,887.868
262,15,0,200,1,0,2,7,414.437
263,8,0,300,0,2,2,5,1951.88
264,8,0,100,0,2,2,8,436.088
265,9,0,0,1,0,0,9,659.357
266,14,0,300,1,2,1,7,361.843
267,4,0,400,0,1,1,4,1437.26
268,17,0,0,1,2,2,9,793.077
269,2,0,100,0,2,0,9,1238.36
270,17,0,400,1,2,2,7,613.448
271,5,0,0,0,2,1,9,332.724
272,13,0,200,1,1,1,6,1461.16
273,1,0,400,0,1,0,4,821.588
274,9,0,100,1,0,0,8,575.952
275,4,0,200,0,1,1,9,2671.21
276,13,0,400,1,1,1,4,1375.94
277,6,0,300,0,0,2,3,1082.34
278,7,0,0,0,1,2,9,455.469
279,14,0,100,1,2,1,8,678.064
280,1,0,200,0,1,0,5,3272.25
281,17,0,200,1,2,2,8,627.002
282,1,0,100,0,1,0,9,821.475
283,11,0,200,1,2,0,6,977.567
284,5,0,100,0,2,1,9,421.1
285,0,0,100,0,0,0,9,1171.22
286,3,0,0,0,0,1,9,620.532
287,6,0,0,0,0,2,9,375.397
288,2,0,0,0,2,0,9,355.315
289,16,0,0,1,1,2,9,778.569
290,10,0,200,1,1,0,6,528.463
291,1,0,300,0,1,0,5,1288.09
292,0,0,0,0,0,0,9,987.044
293,3,0,200,0,0,1,3,4538.04
294,4,0,100,0,1,1,9,870.162
295,3,0,100,0,0,1,8,3488.67
296,3,0,300,0,0,1,6,804.192
297,8,0,100,0,2,2,8,1936.76
298,5,0,300,0,2,1,5,1087.96
299,5,0,400,0,2,1,3,1303.72
300,9,0,200,1,0,0,2,842.395
301,5,0,200,0,2,1,7,1802.46
302,11,0,0,1,2,0,9,377.05
303,11,0,300,1,2,0,5,829.293
304,9,0,0,1,0,0,9,576.15
305,6,0,100,0,0,2,9,755.168
306,12,0,0,1,0,1,8,593.904
307,1,0,0,0,1,0,9,404.916
308,7,0,300,0,1,2,7,2888.49
309,8,0,0,0,2,2,9,2320.74
310,12,0,300,1,0,1,3,1344.73
311,16,0,200,1,1,2,6,1977.04
312,10,0,300,1,1,0,4,1396.77
313,2,0,300,0,2,0,3,887.095
314,12,0,400,1,0,1,2,2776.73
315,12,0,100,1,0,1,7,1592.05
316,10,0,0,1,1,0,9,876.849
317,14,0,200,1,2,1,7,228.602
318,9,0,300,1,0,0,4,3094.14
319,14,0,400,1,2,1,6,792.597
320,6,0,200,0,0,2,6,2538.65
321,16,0,300,1,1,2,6,1609.5
322,10,0,400,1,1,0,5,1161.02
323,15,0,0,1,0,2,9,276.24
324,6,0,400,0,0,2,2,971.432
325,0,0,200,0,0,0,1,1835.95
326,17,0,0,1,2,2,8,543.339
327,7,0,400,0,1,2,6,1220.54
328,2,0,100,0,2,0,8,1138.28
329,13,0,300,1,1,1,6,727.025
330,15,0,400,1,0,2,5,693.501
331,10,0,100,1,1,0,8,1259.12
332,14,0,0,1,2,1,9,311.819
333,0,0,400,0,0,0,1,888.611
334,4,0,400,0,1,1,5,1119.49
335,16,0,400,1,1,2,6,693.637
336,8,0,300,0,2,2,5,4705.02
337,14,0,300,1,2,1,5,1411.93
338,8,0,200,0,2,2,7,786.023
339,15,0,100,1,0,2,8,1227.15
340,2,0,400,0,2,0,6,1138.08
341,2,0,200,0,2,0,8,2869.31
342,0,0,300,0,0,0,1,587.646
343,17,0,300,1,2,2,6,3859.85
344,12,0,200,1,0,1,3,1028.99
345,7,0,100,0,1,2,9,637.033
346,16,0,100,1,1,2,9,694.273
347,15,0,300,1,0,2,6,1211.11
348,9,0,400,1,0,0,1,1309.15
349,17,0,100,1,2,2,9,976.159
350,11,0,100,1,2,0,9,1277.99
351,7,0,200,0,1,2,8,805.237
352,11,0,400,1,2,0,6,594.028
353,4,0,300,0,1,1,4,1520.09
354,17,0,400,1,2,2,5,660.234
355,13,0,0,1,1,1,9,376.785
356,13,0,100,1,1,1,9,828.366
357,3,0,400,0,0,1,3,937.705
358,4,0,0,0,1,1,9,202.689
359,15,0,200,1,0,2,6,3511.12
360,8,0,400,0,2,2,7,1236.82
