trialNum,condition,location,offset,vision,vibration,audio,response,responseTime
1,5,0,100,0,2,1,6,3515.74
2,8,0,100,0,2,2,7,2090.39
3,2,0,200,0,2,0,3,1591.1
4,15,0,0,1,0,2,9,480.071
5,7,0,300,0,1,2,5,4957.43
6,3,0,0,0,0,1,2,4172.39
7,4,0,300,0,1,1,4,5073.59
8,7,0,100,0,1,2,4,4241.26
9,1,0,200,0,1,0,3,1207.85
10,0,0,0,0,0,0,4,4540.44
11,10,0,400,1,1,0,7,2444.51
12,9,0,0,1,0,0,9,1010.17
13,6,0,200,0,0,2,6,2105.42
14,1,0,0,0,1,0,1,1953.92
15,13,0,100,1,1,1,7,1493.02
16,8,0,300,0,2,2,4,1604.85
17,16,0,0,1,1,2,9,326.934
18,4,0,100,0,1,1,2,1238.71
19,0,0,400,0,0,0,3,3773.84
20,12,0,200,1,0,1,7,3909.64
21,7,0,400,0,1,2,4,1637.84
22,13,0,300,1,1,1,8,775.699
23,6,0,300,0,0,2,3,2088.06
24,5,0,0,0,2,1,4,8902.69
25,8,0,200,0,2,2,6,6071.36
26,12,0,300,1,0,1,8,2410.54
27,10,0,100,1,1,0,7,2146.94
28,17,0,400,1,2,2,8,3160.85
29,11,0,100,1,2,0,9,576.706
30,10,0,0,1,1,0,8,1161.73
31,16,0,400,1,1,2,9,1077.84
32,7,0,200,0,1,2,6,2868.21
33,9,0,200,1,0,0,7,3776.87
34,14,0,200,1,2,1,7,1160.65
35,11,0,0,1,2,0,6,3712.23
36,5,0,400,0,2,1,3,639.46
37,9,0,300,1,0,0,7,1209.42
38,1,0,300,0,1,0,2,719.578
39,3,0,100,0,0,1,2,2520.4
40,11,0,400,1,2,0,7,2561.32
41,12,0,0,1,0,1,6,1291.82
42,4,0,400,0,1,1,3,771.883
43,11,0,200,1,2,0,7,676.912
44,9,0,100,1,0,0,7,2475.97
45,10,0,300,1,1,0,6,4444.8
46,13,0,0,1,1,1,8,411.347
47,6,0,100,0,0,2,3,355.512
48,17,0,300,1,2,2,9,1960.68
49,0,0,100,0,0,0,1,1322.11
50,4,0,200,0,1,1,3,904.308
51,8,0,400,0,2,2,3,2770.28
52,2,0,400,0,2,0,3,939.557
53,3,0,300,0,0,1,2,686.542
54,15,0,200,1,0,2,8,1125.36
55,17,0,100,1,2,2,9,394.221
56,13,0,400,1,1,1,7,777.345
57,13,0,200,1,1,1,8,476.745
58,1,0,100,0,1,0,3,471.67
59,1,0,400,0,1,0,2,2488.29
60,17,0,0,1,2,2,9,278.624
61,17,0,200,1,2,2,9,1178.84
62,15,0,400,1,0,2,9,727.877
63,14,0,100,1,2,1,8,543.154
64,14,0,300,1,2,1,8,1311.59
65,3,0,200,0,0,1,3,1354.37
66,6,0,0,0,0,2,4,53.9946
67,15,0,100,1,0,2,9,444.724
68,2,0,0,0,2,0,2,405.789
69,4,0,0,0,1,1,3,271.53
70,6,0,400,0,0,2,4,771.907
71,10,0,200,1,1,0,6,2008.89
72,2,0,300,0,2,0,3,970.927
73,12,0,100,1,0,1,7,776.441
74,16,0,200,1,1,2,9,461.135
75,0,0,300,0,0,0,1,2620.65
76,5,0,300,0,2,1,2,586.518
77,7,0,0,0,1,2,3,891.4
78,3,0,400,0,0,1,2,654.223
79,9,0,400,1,0,0,6,1077.46
80,12,0,400,1,0,1,6,3043.67
81,15,0,300,1,0,2,9,792.187
82,14,0,0,1,2,1,8,342.839
83,2,0,100,0,2,0,2,205.39
84,16,0,100,1,1,2,9,994.295
85,11,0,300,1,2,0,8,764.254
86,14,0,400,1,2,1,6,710.353
87,0,0,200,0,0,0,1,353.458
88,5,0,200,0,2,1,3,1103.37
89,8,0,0,0,2,2,2,370.44
90,16,0,300,1,1,2,8,2411.65
91,3,0,300,0,0,1,4,2066.22
92,9,0,400,1,0,0,6,1143.11
93,6,0,0,0,0,2,8,405.239
94,8,0,100,0,2,2,7,1272.21
95,3,0,400,0,0,1,3,587.503
96,0,0,0,0,0,0,1,669.44
97,6,0,400,0,0,2,6,2353.61
98,11,0,400,1,2,0,8,2359.36
99,0,0,100,0,0,0,1,403.857
100,9,0,100,1,0,0,7,994.099
101,2,0,0,0,2,0,4,1923.5
102,1,0,0,0,1,0,5,2121.19
103,11,0,200,1,2,0,8,561.601
104,15,0,100,1,0,2,9,593.808
105,12,0,100,1,0,1,6,1011.47
106,4,0,100,0,1,1,2,1221.21
107,17,0,0,1,2,2,9,344.212
108,5,0,300,0,2,1,4,2938.14
109,4,0,200,0,1,1,2,786.769
110,10,0,200,1,1,0,7,613.932
111,7,0,300,0,1,2,3,1605.19
112,16,0,400,1,1,2,9,692.963
113,10,0,100,1,1,0,8,409.945
114,8,0,0,0,2,2,7,1522.13
115,1,0,300,0,1,0,3,471.535
116,13,0,400,1,1,1,7,693.55
117,7,0,0,0,1,2,4,321.062
118,7,0,200,0,1,2,4,358.294
119,3,0,100,0,0,1,2,437.832
120,6,0,100,0,0,2,5,553.381
121,7,0,100,0,1,2,4,387.512
122,11,0,0,1,2,0,7,294.218
123,1,0,200,0,1,0,2,939.347
124,14,0,300,1,2,1,8,910.987
125,15,0,400,1,0,2,9,594.5
126,16,0,100,1,1,2,9,344.785
127,5,0,0,0,2,1,4,921.48
128,12,0,300,1,0,1,7,928.026
129,12,0,200,1,0,1,8,443.213
130,16,0,200,1,1,2,9,443.657
131,13,0,200,1,1,1,8,461.443
132,12,0,0,1,0,1,7,243.04
133,6,0,200,0,0,2,4,2587.27
134,4,0,400,0,1,1,3,1270.7
135,9,0,200,1,0,0,7,1059.43
136,10,0,0,1,1,0,8,360.797
137,3,0,200,0,0,1,3,372.147
138,9,0,300,1,0,0,6,1593.58
139,12,0,400,1,0,1,8,860.677
140,15,0,300,1,0,2,9,492.656
141,2,0,300,0,2,0,3,1303.73
142,10,0,400,1,1,0,6,593.24
143,7,0,400,0,1,2,3,1669.23
144,0,0,300,0,0,0,1,502.715
145,14,0,200,1,2,1,7,1243.08
146,15,0,200,1,0,2,9,677.721
147,17,0,400,1,2,2,9,2244.29
148,17,0,200,1,2,2,9,510.017
149,15,0,0,1,0,2,9,278.12
150,16,0,0,1,1,2,9,262.119
151,14,0,400,1,2,1,8,628.394
152,11,0,100,1,2,0,7,509.372
153,13,0,0,1,1,1,7,328.626
154,13,0,100,1,1,1,8,928.508
155,8,0,300,0,2,2,4,1355.11
156,4,0,300,0,1,1,2,1552.08
157,0,0,200,0,0,0,1,653.553
158,2,0,400,0,2,0,2,569.658
159,5,0,400,0,2,1,2,1372.67
160,5,0,200,0,2,1,1,436.522
161,13,0,300,1,1,1,8,510.505
162,2,0,200,0,2,0,3,2487.58
163,16,0,300,1,1,2,9,326.136
164,1,0,100,0,1,0,3,269.817
165,17,0,100,1,2,2,9,277.088
166,11,0,300,1,2,0,7,4561.02
167,14,0,100,1,2,1,8,446.03
168,4,0,0,0,1,1,3,388.272
169,17,0,300,1,2,2,9,510.717
170,10,0,300,1,1,0,6,444.295
171,1,0,400,0,1,0,2,853.714
172,8,0,400,0,2,2,2,802.762
173,5,0,100,0,2,1,4,951.007
174,2,0,100,0,2,0,2,2537.86
175,0,0,400,0,0,0,3,3873.29
176,6,0,300,0,0,2,4,736.48
177,9,0,0,1,0,0,6,275.055
178,14,0,0,1,2,1,8,311.482
179,3,0,0,0,0,1,3,738.464
180,8,0,200,0,2,2,4,2337.45
181,5,0,300,0,2,1,5,2816.35
182,8,0,300,0,2,2,4,1333.49
183,17,0,300,1,2,2,9,646.541
184,16,0,400,1,1,2,7,3026.95
185,10,0,300,1,1,0,7,2076.27
186,5,0,100,0,2,1,6,1585.88
187,2,0,200,0,2,0,5,754.121
188,3,0,0,0,0,1,3,3119.88
189,6,0,0,0,0,2,5,1754.41
190,4,0,300,0,1,1,2,353.556
191,10,0,400,1,1,0,8,577.094
192,12,0,200,1,0,1,7,543.572
193,10,0,0,1,1,0,8,310.177
194,1,0,100,0,1,0,4,139.456
195,2,0,100,0,2,0,6,1304.2
196,14,0,400,1,2,1,6,844.111
197,5,0,200,0,2,1,3,220.688
198,7,0,300,0,1,2,6,1803.58
199,13,0,0,1,1,1,8,309.915
200,13,0,200,1,1,1,7,929.319
201,14,0,200,1,2,1,8,444.673
202,0,0,400,0,0,0,1,1120.51
203,15,0,300,1,0,2,8,1125.64
204,6,0,400,0,0,2,4,2386.5
205,13,0,300,1,1,1,7,626.228
206,3,0,300,0,0,1,3,3002.98
207,11,0,200,1,2,0,7,460.081
208,9,0,300,1,0,0,6,660.123
209,13,0,100,1,1,1,8,193.136
210,14,0,300,1,2,1,6,460.817
211,14,0,0,1,2,1,9,310.609
212,6,0,200,0,0,2,5,888.592
213,7,0,100,0,1,2,6,620.36
214,7,0,400,0,1,2,4,2254.81
215,7,0,0,0,1,2,7,469.808
216,9,0,100,1,0,0,6,614.258
217,16,0,100,1,1,2,9,445.154
218,0,0,300,0,0,0,1,553.891
219,6,0,100,0,0,2,6,919.847
220,15,0,0,1,0,2,9,210.374
221,14,0,100,1,2,1,7,461.583
222,9,0,200,1,0,0,6,927.451
223,4,0,0,0,1,1,5,1503.86
224,11,0,100,1,2,0,8,3162.37
225,8,0,200,0,2,2,4,488.203
226,12,0,300,1,0,1,6,909.39
227,2,0,400,0,2,0,4,554.404
228,7,0,200,0,1,2,5,1319.66
229,0,0,100,0,0,0,1,2087.47
230,15,0,400,1,0,2,7,1460.99
231,11,0,400,1,2,0,7,926.481
232,16,0,0,1,1,2,9,293.766
233,11,0,0,1,2,0,7,528.24
234,12,0,400,1,0,1,6,777.235
235,8,0,100,0,2,2,6,419.643
236,12,0,0,1,0,1,7,394.404
237,6,0,300,0,0,2,2,787.168
238,11,0,300,1,2,0,7,559.88
239,0,0,0,0,0,0,1,387.189
240,13,0,400,1,1,1,5,694.999
241,9,0,0,1,0,0,7,329.38
242,16,0,300,1,1,2,8,1345.33
243,3,0,200,0,0,1,3,654.001
244,1,0,300,0,1,0,4,1803.57
245,17,0,100,1,2,2,6,2009.25
246,17,0,0,1,2,2,9,260.399
247,17,0,200,1,2,2,8,211.417
248,10,0,100,1,1,0,6,294.147
249,2,0,300,0,2,0,2,523.226
250,4,0,100,0,1,1,3,235.429
251,8,0,0,0,2,2,7,405.127
252,8,0,400,0,2,2,4,538.253
253,1,0,0,0,1,0,6,1652.81
254,17,0,400,1,2,2,7,628.004
255,12,0,100,1,0,1,6,408.739
256,16,0,200,1,1,2,8,377.593
257,2,0,0,0,2,0,7,705.003
258,9,0,400,1,0,0,4,794.567
259,3,0,400,0,0,1,4,718.874
260,3,0,100,0,0,1,4,836.016
261,4,0,400,0,1,1,2,604.198
262,4,0,200,0,1,1,3,202.807
263,15,0,100,1,0,2,9,343.673
264,0,0,200,0,0,0,3,422.194
265,5,0,0,0,2,1,4,155.153
266,10,0,200,1,1,0,7,559.938
267,5,0,400,0,2,1,5,2002.64
268,15,0,200,1,0,2,8,443.041
269,1,0,400,0,1,0,2,637.633
270,1,0,200,0,1,0,3,435.102
271,14,0,300,1,2,1,7,689.727
272,12,0,400,1,0,1,6,2508.03
273,8,0,400,0,2,2,5,2636.96
274,11,0,300,1,2,0,7,1191.73
275,15,0,100,1,0,2,9,277.221
276,1,0,300,0,1,0,3,1955.06
277,5,0,200,0,2,1,4,1586.94
278,10,0,100,1,1,0,6,2775.43
279,1,0,100,0,1,0,3,654.965
280,15,0,0,1,0,2,9,375.788
281,8,0,0,0,2,2,6,1171.71
282,0,0,200,0,0,0,1,2540.47
283,11,0,400,1,2,0,7,675.037
284,12,0,200,1,0,1,6,2491.26
285,10,0,400,1,1,0,7,2560.15
286,2,0,100,0,2,0,4,1737.51
287,13,0,200,1,1,1,6,1193.82
288,4,0,400,0,1,1,3,471.439
289,9,0,0,1,0,0,8,1275.92
290,13,0,400,1,1,1,7,2146.81
291,13,0,0,1,1,1,8,1177.11
292,15,0,300,1,0,2,8,1028.22
293,16,0,0,1,1,2,9,392.763
294,2,0,400,0,2,0,2,588.67
295,17,0,300,1,2,2,7,1759.59
296,5,0,300,0,2,1,3,1169.38
297,0,0,100,0,0,0,2,1136.47
298,16,0,100,1,1,2,9,344.52
299,17,0,100,1,2,2,9,395.015
300,17,0,0,1,2,2,9,328.113
301,9,0,300,1,0,0,5,2210.67
302,6,0,300,0,0,2,7,2186.71
303,12,0,300,1,0,1,5,4742.48
304,7,0,100,0,1,2,7,1436.81
305,5,0,100,0,2,1,5,504.326
306,6,0,400,0,0,2,4,1087.75
307,9,0,200,1,0,0,6,478.875
308,7,0,300,0,1,2,8,504.287
309,14,0,400,1,2,1,7,1226.18
310,9,0,400,1,0,0,4,1460.18
311,10,0,0,1,1,0,8,342.875
312,12,0,0,1,0,1,6,394.195
313,2,0,200,0,2,0,3,521.784
314,9,0,100,1,0,0,6,1893.62
315,8,0,200,0,2,2,6,3107.32
316,11,0,100,1,2,0,8,360.251
317,10,0,300,1,1,0,6,527.986
318,15,0,200,1,0,2,6,3409.57
319,16,0,400,1,1,2,7,676.577
320,7,0,0,0,1,2,6,1853.0
321,14,0,100,1,2,1,8,877.283
322,0,0,400,0,0,0,1,971.45
323,0,0,0,0,0,0,3,2687.79
324,10,0,200,1,1,0,7,1310.66
325,2,0,0,0,2,0,2,1387.53
326,1,0,200,0,1,0,4,4187.62
327,3,0,100,0,0,1,5,886.843
328,6,0,0,0,0,2,6,754.089
329,14,0,200,1,2,1,8,560.588
330,4,0,300,0,1,1,6,604.036
331,13,0,300,1,1,1,9,511.101
332,3,0,200,0,0,1,7,1271.02
333,16,0,200,1,1,2,9,493.386
334,7,0,200,0,1,2,6,620.907
335,12,0,100,1,0,1,8,927.109
336,11,0,200,1,2,0,7,1077.25
337,3,0,300,0,0,1,8,2327.78
338,7,0,400,0,1,2,6,7502.85
339,6,0,200,0,0,2,4,1303.2
340,13,0,100,1,1,1,8,409.837
341,0,0,300,0,0,0,2,1037.9
342,2,0,300,0,2,0,5,2518.6
343,16,0,300,1,1,2,6,6509.46
344,11,0,0,1,2,0,7,743.318
345,3,0,0,0,0,1,3,1405.32
346,5,0,0,0,2,1,7,1504.39
347,1,0,400,0,1,0,5,9071.44
348,4,0,0,0,1,1,6,1423.16
349,8,0,100,0,2,2,4,738.034
350,14,0,0,1,2,1,7,1743.85
351,5,0,400,0,2,1,7,1238.42
352,6,0,100,0,0,2,6,4752.96
353,3,0,400,0,0,1,2,554.254
354,1,0,0,0,1,0,4,885.472
355,8,0,300,0,2,2,3,5687.78
356,17,0,200,1,2,2,9,495.627
357,4,0,100,0,1,1,6,1437.74
358,17,0,400,1,2,2,5,4376.44
359,4,0,200,0,1,1,4,1336.8
360,15,0,400,1,0,2,7,710.032
