trialNum,visualBlock,feedbackBlock,offset,response,responseTime
1,1,2,600,2,3032.91
2,1,2,200,2,1709.57
3,1,2,0,2,1569.38
4,1,2,200,2,2376.15
5,1,2,400,2,2142.97
6,1,2,100,2,2110.26
7,1,2,0,2,1768.44
8,1,2,600,2,1543.69
9,1,2,400,2,3359.6
10,1,2,500,2,6524.37
11,1,2,100,2,1976.49
12,1,2,300,2,4278.29
13,1,2,0,2,1833.55
14,1,2,400,1,994.074
15,1,2,200,2,1276.46
16,1,2,0,2,918.014
17,1,2,500,1,1243.98
18,1,2,200,2,1260.55
19,1,2,500,1,1361.12
20,1,2,600,1,642.664
21,1,2,400,2,3258.58
22,1,2,400,1,423.445
23,1,2,600,1,442.093
24,1,2,300,1,540.77
25,1,2,600,1,1675.89
26,1,2,300,1,1040.71
27,1,2,500,1,1359.33
28,1,2,100,2,1590.37
29,1,2,100,2,710.901
30,1,2,100,2,526.888
31,1,2,300,2,1577.46
32,1,2,200,2,608.606
33,1,2,500,2,5376.79
34,1,2,300,1,307.641
35,1,2,0,2,632.634
36,1,2,100,2,377.376
37,1,2,400,1,493.767
38,1,2,300,1,325.168
39,1,2,500,1,6759.67
40,1,2,200,2,2324.1
41,1,2,600,1,259.756
42,1,2,0,2,780.635
43,1,3,0,2,3089.54
44,1,3,100,2,3768.99
45,1,3,600,1,1045.1
46,1,3,600,1,568.081
47,1,3,100,2,3948.43
48,1,3,100,2,1367.51
49,1,3,400,1,432.551
50,1,3,400,1,586.182
51,1,3,300,1,561.621
52,1,3,600,1,462.631
53,1,3,600,1,805.386
54,1,3,400,1,498.305
55,1,3,400,1,424.255
56,1,3,300,1,511.269
57,1,3,0,2,873.37
58,1,3,100,2,644.732
59,1,3,500,2,2168.96
60,1,3,100,2,1058.74
61,1,3,100,2,1886.74
62,1,3,500,1,364.371
63,1,3,400,1,364.389
64,1,3,300,1,465.985
65,1,3,200,2,1547.15
66,1,3,500,1,371.59
67,1,3,600,1,1523.14
68,1,3,0,2,1780.08
69,1,3,200,2,5795.97
70,1,3,0,2,2536.85
71,1,3,300,1,409.128
72,1,3,200,1,3315.01
73,1,3,500,1,386.14
74,1,3,400,1,368.956
75,1,3,200,2,1955.78
76,1,3,600,2,4641.74
77,1,3,300,2,3968.43
78,1,3,200,2,1632.04
79,1,3,0,2,7919.39
80,1,3,0,2,812.401
81,1,3,500,1,307.1
82,1,3,300,1,423.07
83,1,3,200,1,415.843
84,1,3,500,1,2005.49
85,1,1,100,2,3966.43
86,1,1,0,2,800.703
87,1,1,500,1,261.14
88,1,1,300,1,241.328
89,1,1,600,1,259.047
90,1,1,600,1,57.7902
91,1,1,0,2,380.724
92,1,1,500,1,260.846
93,1,1,400,1,875.025
94,1,1,100,2,491.639
95,1,1,400,1,310.673
96,1,1,400,1,308.412
97,1,1,200,2,1808.69
98,1,1,300,1,842.943
99,1,1,300,1,3992.34
100,1,1,500,1,492.434
101,1,1,0,2,8398.39
102,1,1,400,1,911.223
103,1,1,500,1,108.412
104,1,1,100,1,5124.59
105,1,1,200,1,8076.76
106,1,1,200,1,3492.96
107,1,1,300,2,2676.38
108,1,1,500,1,359.668
109,1,1,600,1,1257.58
110,1,1,600,1,40.2709
111,1,1,200,2,1607.78
112,1,1,0,2,399.229
113,1,1,100,2,3494.0
114,1,1,300,1,377.573
115,1,1,0,2,1582.44
116,1,1,200,1,5078.05
117,1,1,400,1,292.721
118,1,1,100,1,1625.37
119,1,1,500,1,193.456
120,1,1,100,2,1125.01
121,1,1,300,1,443.593
122,1,1,0,2,450.86
123,1,1,600,1,77.9105
124,1,1,400,1,323.881
125,1,1,600,1,492.459
126,1,1,200,2,2106.84
127,1,7,400,1,1216.65
128,1,7,500,1,389.478
129,1,7,0,2,813.199
130,1,7,100,1,5286.47
131,1,7,0,1,3278.52
132,1,7,600,1,1058.66
133,1,7,200,2,478.253
134,1,7,500,1,3847.23
135,1,7,600,1,7438.69
136,1,7,200,2,830.952
137,1,7,600,1,720.393
138,1,7,500,1,199.728
139,1,7,100,2,780.443
140,1,7,200,2,896.642
141,1,7,400,2,3369.12
142,1,7,100,2,497.672
143,1,7,0,2,521.697
144,1,7,400,1,468.791
145,1,7,300,2,2890.71
146,1,7,300,2,4010.12
147,1,7,600,1,4523.62
148,1,7,0,2,451.26
149,1,7,600,1,237.035
150,1,7,500,2,4771.09
151,1,7,500,1,265.335
152,1,7,600,1,691.075
153,1,7,0,2,519.476
154,1,7,100,2,787.614
155,1,7,200,2,2527.54
156,1,7,100,2,604.409
157,1,7,100,2,474.039
158,1,7,300,1,5834.84
159,1,7,0,2,661.662
160,1,7,400,1,105.469
161,1,7,300,1,174.1
162,1,7,400,1,144.642
163,1,7,200,2,383.534
164,1,7,200,2,977.674
165,1,7,400,1,90.8426
166,1,7,300,1,3480.37
167,1,7,500,1,2297.26
168,1,7,300,1,1608.44
169,1,6,500,1,1999.45
170,1,6,100,2,2957.51
171,1,6,500,1,6877.26
172,1,6,400,1,190.941
173,1,6,600,1,808.643
174,1,6,100,2,573.113
175,1,6,0,2,7999.7
176,1,6,300,2,2560.81
177,1,6,600,1,593.352
178,1,6,0,2,613.518
179,1,6,200,2,2011.14
180,1,6,600,1,26.3971
181,1,6,400,1,174.179
182,1,6,200,2,608.375
183,1,6,200,2,1527.3
184,1,6,300,1,308.688
185,1,6,400,1,209.26
186,1,6,400,1,58.0912
187,1,6,300,1,9107.97
188,1,6,200,2,1608.79
189,1,6,600,1,360.404
190,1,6,200,2,1907.29
191,1,6,0,2,933.46
192,1,6,500,1,10.7455
193,1,6,100,2,2208.03
194,1,6,300,2,6826.9
195,1,6,100,2,442.135
196,1,6,400,1,60.7156
197,1,6,100,2,1541.54
198,1,6,600,1,394.203
199,1,6,300,1,3590.67
200,1,6,0,2,1333.49
201,1,6,400,1,77.8679
202,1,6,300,2,9058.24
203,1,6,500,1,225.184
204,1,6,100,2,5341.12
205,1,6,0,2,1433.82
206,1,6,600,1,361.292
207,1,6,500,1,290.426
208,1,6,200,2,791.553
209,1,6,500,1,676.808
210,1,6,0,2,4230.86
211,1,8,500,1,450.256
212,1,8,200,2,1479.01
213,1,8,0,2,375.261
214,1,8,500,1,176.902
215,1,8,400,1,491.622
216,1,8,400,1,191.328
217,1,8,100,2,525.635
218,1,8,400,1,433.18
219,1,8,600,1,258.378
220,1,8,600,1,1456.01
221,1,8,200,2,491.656
222,1,8,500,1,260.433
223,1,8,200,2,2414.12
224,1,8,600,1,553.778
225,1,8,100,2,1238.18
226,1,8,500,2,4781.07
227,1,8,300,2,4682.75
228,1,8,100,2,428.346
229,1,8,600,1,49.3107
230,1,8,0,2,384.947
231,1,8,100,2,998.224
232,1,8,300,1,116.772
233,1,8,300,2,1113.35
234,1,8,0,2,389.376
235,1,8,300,1,172.535
236,1,8,500,1,59.4013
237,1,8,600,1,143.866
238,1,8,400,1,535.526
239,1,8,0,2,602.631
240,1,8,100,2,1177.2
241,1,8,0,2,472.218
242,1,8,300,2,5953.52
243,1,8,100,2,954.059
244,1,8,200,2,3515.77
245,1,8,300,1,6818.9
246,1,8,500,1,86.7493
247,1,8,600,1,3387.17
248,1,8,200,1,636.577
249,1,8,200,2,2776.99
250,1,8,400,1,580.853
251,1,8,400,1,469.128
252,1,8,0,2,1012.53
253,1,5,100,1,4982.73
254,1,5,500,1,569.56
255,1,5,400,1,428.335
256,1,5,100,2,1677.84
257,1,5,600,1,410.722
258,1,5,300,1,503.593
259,1,5,0,2,473.19
260,1,5,200,2,1541.59
261,1,5,600,1,234.809
262,1,5,500,1,262.217
263,1,5,400,1,584.353
264,1,5,200,1,194.854
265,1,5,300,1,493.389
266,1,5,0,2,490.708
267,1,5,300,2,3779.99
268,1,5,0,2,290.162
269,1,5,300,1,4203.78
270,1,5,400,1,683.204
271,1,5,500,1,11.7823
272,1,5,600,1,222.209
273,1,5,300,1,349.469
274,1,5,0,2,645.151
275,1,5,400,2,2286.95
276,1,5,0,2,407.026
277,1,5,200,2,356.535
278,1,5,600,2,1612.05
279,1,5,200,2,8292.46
280,1,5,500,2,2010.83
281,1,5,100,2,2167.09
282,1,5,400,1,2900.83
283,1,5,100,2,4785.76
284,1,5,0,2,499.269
285,1,5,600,1,402.756
286,1,5,500,1,637.065
287,1,5,400,1,116.998
288,1,5,500,1,341.861
289,1,5,100,2,243.317
290,1,5,200,1,209.842
291,1,5,300,2,3453.66
292,1,5,600,1,169.743
293,1,5,100,2,588.741
294,1,5,200,2,812.853
295,1,4,400,1,3016.35
296,1,4,300,1,2874.53
297,1,4,200,2,1675.46
298,1,4,200,1,593.916
299,1,4,0,2,949.56
300,1,4,500,1,1578.07
301,1,4,200,1,657.263
302,1,4,200,1,393.266
303,1,4,0,2,382.778
304,1,4,0,2,317.943
305,1,4,500,1,127.943
306,1,4,300,1,840.641
307,1,4,100,2,725.791
308,1,4,400,1,3093.49
309,1,4,300,1,624.849
310,1,4,600,1,909.059
311,1,4,400,1,590.352
312,1,4,400,1,407.802
313,1,4,600,1,308.939
314,1,4,600,1,289.871
315,1,4,300,1,1940.93
316,1,4,500,1,1575.55
317,1,4,300,1,258.15
318,1,4,600,1,375.541
319,1,4,100,2,474.443
320,1,4,500,1,3926.27
321,1,4,400,1,207.869
322,1,4,100,2,558.826
323,1,4,200,2,1943.36
324,1,4,500,1,292.723
325,1,4,600,1,308.152
326,1,4,500,1,606.929
327,1,4,0,2,714.476
328,1,4,0,2,367.723
329,1,4,0,2,3317.73
330,1,4,300,2,1027.44
331,1,4,100,2,525.97
332,1,4,600,1,293.139
333,1,4,400,1,740.242
334,1,4,100,2,2375.38
335,1,4,200,1,376.777
336,1,4,100,2,459.647
