trialNum,visualBlock,feedbackBlock,offset,response,responseTime
1,1,7,600,1,4516.43
2,1,7,200,2,2022.71
3,1,7,500,1,2224.09
4,1,7,500,1,2162.73
5,1,7,400,1,8675.44
6,1,7,600,1,1284.13
7,1,7,0,2,798.247
8,1,7,400,1,1109.06
9,1,7,100,2,1344.07
10,1,7,300,1,1110.52
11,1,7,600,1,1613.35
12,1,7,300,1,1184.16
13,1,7,0,2,743.082
14,1,7,300,2,2334.17
15,1,7,500,1,1929.83
16,1,7,600,1,1843.9
17,1,7,300,2,1066.64
18,1,7,300,1,1434.7
19,1,7,0,2,1237.19
20,1,7,0,2,1499.06
21,1,7,100,2,1585.98
22,1,7,100,2,669.042
23,1,7,400,1,1426.85
24,1,7,400,1,1177.85
25,1,7,400,2,1181.91
26,1,7,100,2,774.863
27,1,7,200,1,1259.02
28,1,7,100,2,405.43
29,1,7,500,1,1008.97
30,1,7,200,2,438.301
31,1,7,0,2,491.957
32,1,7,0,2,689.588
33,1,7,200,1,508.188
34,1,7,500,2,402.586
35,1,7,200,2,939.256
36,1,7,600,1,1260.05
37,1,7,500,2,694.067
38,1,7,200,1,1729.54
39,1,7,400,1,1919.41
40,1,7,600,1,804.101
41,1,7,300,2,1895.07
42,1,7,100,2,1247.42
43,1,2,0,2,1972.83
44,1,2,600,1,1344.99
45,1,2,500,2,2023.95
46,1,2,100,2,4358.49
47,1,2,600,1,660.13
48,1,2,0,2,3063.66
49,1,2,600,1,1211.23
50,1,2,0,2,947.567
51,1,2,200,2,1194.25
52,1,2,0,2,650.04
53,1,2,200,1,394.296
54,1,2,0,2,1216.93
55,1,2,100,1,1244.35
56,1,2,100,2,1127.76
57,1,2,100,1,1876.94
58,1,2,300,1,1126.85
59,1,2,600,1,1993.25
60,1,2,500,2,707.638
61,1,2,300,2,391.802
62,1,2,100,2,625.946
63,1,2,0,2,434.204
64,1,2,400,2,727.691
65,1,2,400,2,1158.96
66,1,2,300,1,408.374
67,1,2,200,1,759.354
68,1,2,500,1,642.959
69,1,2,400,1,741.943
70,1,2,300,1,641.618
71,1,2,500,1,276.405
72,1,2,200,2,674.596
73,1,2,600,2,710.236
74,1,2,200,2,357.264
75,1,2,600,1,160.341
76,1,2,400,2,390.402
77,1,2,100,2,309.09
78,1,2,400,2,510.354
79,1,2,200,2,692.278
80,1,2,500,1,226.607
81,1,2,400,2,324.666
82,1,2,500,1,260.977
83,1,2,300,1,674.488
84,1,2,300,1,293.135
85,1,3,0,2,1306.62
86,1,3,0,2,3746.0
87,1,3,300,1,1109.53
88,1,3,200,2,1697.84
89,1,3,500,2,997.023
90,1,3,400,2,1435.4
91,1,3,400,1,1447.5
92,1,3,0,2,1495.27
93,1,3,600,1,1045.24
94,1,3,600,2,750.321
95,1,3,600,1,1728.71
96,1,3,200,2,644.64
97,1,3,300,2,957.593
98,1,3,600,1,3155.15
99,1,3,500,2,2015.5
100,1,3,300,2,1572.57
101,1,3,100,2,1239.97
102,1,3,200,2,670.862
103,1,3,200,2,996.165
104,1,3,100,2,630.289
105,1,3,400,2,799.832
106,1,3,500,2,894.678
107,1,3,500,1,1377.58
108,1,3,400,1,1034.77
109,1,3,100,1,2542.45
110,1,3,500,2,2146.9
111,1,3,100,2,1045.84
112,1,3,200,1,877.169
113,1,3,500,2,1405.67
114,1,3,0,2,638.539
115,1,3,400,1,625.637
116,1,3,600,2,868.802
117,1,3,200,2,1265.78
118,1,3,400,1,905.76
119,1,3,600,2,866.671
120,1,3,0,2,1200.55
121,1,3,0,2,932.047
122,1,3,100,2,733.314
123,1,3,100,2,536.186
124,1,3,300,1,390.308
125,1,3,300,2,576.763
126,1,3,300,2,987.841
127,1,4,0,2,2639.67
128,1,4,400,1,2744.43
129,1,4,400,1,842.537
130,1,4,300,2,1158.87
131,1,4,100,2,942.654
132,1,4,600,1,2293.97
133,1,4,100,2,639.508
134,1,4,500,1,1777.21
135,1,4,400,1,308.431
136,1,4,0,1,432.066
137,1,4,0,1,467.523
138,1,4,100,2,411.643
139,1,4,300,1,660.525
140,1,4,400,1,476.376
141,1,4,200,2,876.582
142,1,4,300,1,593.469
143,1,4,500,2,1042.71
144,1,4,500,2,708.555
145,1,4,300,2,1507.89
146,1,4,200,2,892.913
147,1,4,600,1,293.352
148,1,4,600,2,690.464
149,1,4,100,1,626.055
150,1,4,100,1,492.459
151,1,4,400,1,1910.99
152,1,4,600,1,675.275
153,1,4,200,2,807.784
154,1,4,600,1,326.326
155,1,4,500,2,391.098
156,1,4,200,2,457.608
157,1,4,500,2,276.773
158,1,4,500,1,374.706
159,1,4,0,2,1016.71
160,1,4,400,2,644.368
161,1,4,200,1,891.893
162,1,4,300,2,593.218
163,1,4,0,2,965.993
164,1,4,600,1,1110.85
165,1,4,300,1,657.288
166,1,4,100,2,609.152
167,1,4,200,1,460.768
168,1,4,0,2,1015.97
169,1,8,500,1,1333.59
170,1,8,400,1,539.129
171,1,8,200,1,702.967
172,1,8,400,2,1293.56
173,1,8,100,1,537.42
174,1,8,600,1,501.51
175,1,8,400,1,386.974
176,1,8,500,2,266.988
177,1,8,0,2,829.509
178,1,8,0,2,438.318
179,1,8,200,1,372.819
180,1,8,600,1,443.925
181,1,8,600,2,626.293
182,1,8,200,1,1009.0
183,1,8,600,2,433.647
184,1,8,100,2,364.709
185,1,8,0,2,428.88
186,1,8,100,2,386.291
187,1,8,500,1,988.534
188,1,8,400,1,1591.23
189,1,8,0,2,721.132
190,1,8,300,2,1058.84
191,1,8,500,2,1180.32
192,1,8,600,1,833.989
193,1,8,200,2,1330.02
194,1,8,100,1,723.862
195,1,8,100,2,1193.03
196,1,8,200,1,1000.3
197,1,8,500,1,474.348
198,1,8,300,1,800.513
199,1,8,300,1,389.016
200,1,8,300,1,587.914
201,1,8,100,2,1294.67
202,1,8,500,1,306.838
203,1,8,0,2,502.051
204,1,8,0,2,446.397
205,1,8,400,1,313.135
206,1,8,300,2,432.01
207,1,8,600,1,261.443
208,1,8,400,2,492.499
209,1,8,300,1,334.312
210,1,8,200,2,709.263
211,1,5,100,2,2566.05
212,1,5,300,1,316.498
213,1,5,400,1,364.105
214,1,5,500,1,2687.9
215,1,5,600,1,513.894
216,1,5,300,1,398.106
217,1,5,500,1,662.997
218,1,5,500,1,267.72
219,1,5,600,1,780.917
220,1,5,600,1,138.518
221,1,5,200,2,550.82
222,1,5,0,2,670.267
223,1,5,0,2,440.553
224,1,5,100,2,422.057
225,1,5,400,1,426.346
226,1,5,300,2,430.426
227,1,5,300,2,665.474
228,1,5,100,2,547.433
229,1,5,600,1,218.081
230,1,5,200,2,674.924
231,1,5,200,2,358.545
232,1,5,500,1,153.869
233,1,5,200,2,547.466
234,1,5,200,1,806.377
235,1,5,400,1,305.264
236,1,5,100,2,413.404
237,1,5,600,1,529.627
238,1,5,0,2,302.889
239,1,5,400,1,231.639
240,1,5,300,1,500.711
241,1,5,0,2,443.751
242,1,5,400,1,189.557
243,1,5,200,1,449.088
244,1,5,100,2,482.663
245,1,5,500,1,174.238
246,1,5,300,1,302.379
247,1,5,100,2,473.698
248,1,5,0,1,384.135
249,1,5,400,2,70.3911
250,1,5,500,1,523.36
251,1,5,600,1,130.907
252,1,5,0,2,366.266
253,1,1,300,1,1232.9
254,1,1,300,1,642.96
255,1,1,300,2,1092.49
256,1,1,400,1,459.537
257,1,1,600,1,209.521
258,1,1,0,2,514.389
259,1,1,500,1,493.662
260,1,1,600,1,141.507
261,1,1,300,1,290.525
262,1,1,100,2,359.443
263,1,1,100,2,860.762
264,1,1,200,2,843.588
265,1,1,0,2,417.01
266,1,1,100,1,227.505
267,1,1,200,1,544.442
268,1,1,600,2,93.3156
269,1,1,600,1,107.326
270,1,1,200,2,273.796
271,1,1,500,1,41474.2
272,1,1,500,1,1307.65
273,1,1,400,1,108.642
274,1,1,200,1,491.596
275,1,1,100,1,326.962
276,1,1,200,1,843.992
277,1,1,200,1,276.758
278,1,1,600,1,293.478
279,1,1,600,1,540.028
280,1,1,100,2,624.211
281,1,1,500,1,293.513
282,1,1,400,1,808.305
283,1,1,300,1,74.4866
284,1,1,500,1,359.586
285,1,1,500,1,141.229
286,1,1,400,1,158.262
287,1,1,0,2,364.635
288,1,1,300,1,627.914
289,1,1,400,1,292.311
290,1,1,400,1,92.0553
291,1,1,0,2,332.137
292,1,1,0,2,267.488
293,1,1,0,2,234.729
294,1,1,100,1,261.376
295,1,6,200,1,5166.29
296,1,6,400,1,676.896
297,1,6,100,1,559.113
298,1,6,200,2,7260.07
299,1,6,300,2,2426.7
300,1,6,300,1,23007.9
301,1,6,100,2,5775.79
302,1,6,0,2,883.663
303,1,6,100,1,844.683
304,1,6,300,1,193.4
305,1,6,500,1,59.3822
306,1,6,0,2,364.811
307,1,6,100,2,594.18
308,1,6,300,1,310.665
309,1,6,100,1,475.356
310,1,6,200,1,860.519
311,1,6,600,1,1409.69
312,1,6,500,1,7.42462
313,1,6,300,1,491.13
314,1,6,100,2,476.247
315,1,6,0,2,283.112
316,1,6,500,1,61.6393
317,1,6,500,1,1425.06
318,1,6,0,1,314.388
319,1,6,500,2,627.557
320,1,6,0,2,548.242
321,1,6,600,1,160.996
322,1,6,600,1,24.0692
323,1,6,600,1,7.82239
324,1,6,500,1,1306.97
325,1,6,600,1,8.13794
326,1,6,300,2,790.31
327,1,6,200,1,542.359
328,1,6,400,1,893.889
329,1,6,200,1,124.855
330,1,6,400,1,260.237
331,1,6,200,1,242.173
332,1,6,600,1,9.87274
333,1,6,400,1,607.801
334,1,6,0,2,448.259
335,1,6,400,1,12.1641
336,1,6,400,1,1108.53
